---Stopping/Range Input Data (Number-format: Period = Decimal Point) 
---Output File Name                                                  
"sr.out"
---Ion(Z), Ion Mass(u)                                               
2   4.003
---Target Data: (Solid=0,Gas=1), Density(g/cm3), Compound Corr.      
0    2.33    0
---Number of Target Elements                                         
1
---Target Elements: (Z), Target name, Stoich, Target Mass(u)         
14                   "Silicon" 100             28.086
---Output Stopping Units (1-8)                                       
7
---Ion Energy : E-Min(keV), E-Max(keV)                               
0 0
   3113.124    
   3113.288    
   3113.451    
   3113.615    
   3113.779    
   3113.943    
   3114.107    
   3114.271    
   3114.435    
   3114.598    
   3114.762    
   3114.926    
   3115.090    
   3115.254    
   3115.417    
   3115.581    
   3115.745    
   3115.909    
   3116.073    
   3116.237    
   3116.401    
   3116.564    
   3116.728    
   3116.892    
   3117.056    
   3117.220    
   3117.384    
   3117.547    
   3117.711    
   3117.875    
   3118.039    
   3118.203    
   3118.367    
   3118.531    
   3118.694    
   3118.858    
   3119.022    
   3119.186    
   3119.350    
   3119.513    
   3119.677    
   3119.841    
   3120.005    
   3120.169    
   3120.333    
   3120.497    
   3120.660    
   3120.824    
   3120.988    
   3121.152    
   3121.316    
   3121.479    
   3121.644    
   3121.807    
   3121.971    
   3122.135    
   3122.299    
   3122.463    
   3122.626    
   3122.790    
   3122.954    
   3123.118    
   3123.282    
   3123.446    
   3123.610    
   3123.773    
   3123.937    
   3124.101    
   3124.265    
   3124.429    
   3124.593    
   3124.756    
   3124.920    
   3125.084    
   3125.248    
   3125.412    
   3125.576    
   3125.740    
   3125.903    
   3126.067    
   3126.231    
   3126.395    
   3126.559    
   3126.722    
   3126.886    
   3127.050    
   3127.214    
   3127.378    
   3127.542    
   3127.706    
   3127.869    
   3128.033    
   3128.197    
   3128.361    
   3128.525    
   3128.688    
   3128.852    
   3129.016    
   3129.180    
   3129.344    
   3129.508    
   3129.672    
   3129.835    
   3129.999    
   3130.163    
   3130.327    
   3130.491    
   3130.655    
   3130.818    
   3130.982    
   3131.146    
   3131.310    
   3131.474    
   3131.638    
   3131.802    
   3131.965    
   3132.129    
   3132.293    
   3132.457    
   3132.621    
   3132.785    
   3132.948    
   3133.112    
   3133.276    
   3133.440    
   3133.604    
   3133.768    
   3133.931    
   3134.095    
   3134.259    
   3134.423    
   3134.587    
   3134.751    
   3134.915    
   3135.078    
   3135.242    
   3135.406    
   3135.570    
   3135.734    
   3135.897    
   3136.061    
   3136.225    
   3136.389    
   3136.553    
   3136.717    
   3136.881    
   3137.044    
   3137.208    
   3137.372    
   3137.536    
   3137.700    
   3137.864    
   3138.027    
   3138.191    
   3138.355    
   3138.519    
   3138.683    
   3138.847    
   3139.010    
   3139.174    
   3139.338    
   3139.502    
   3139.666    
   3139.830    
   3139.993    
   3140.157    
   3140.321    
   3140.485    
   3140.649    
   3140.813    
   3140.977    
   3141.140    
   3141.304    
   3141.468    
   3141.632    
   3141.796    
   3141.960    
   3142.124    
   3142.287    
   3142.451    
   3142.615    
   3142.779    
   3142.943    
   3143.106    
   3143.270    
   3143.434    
   3143.598    
   3143.762    
   3143.926    
   3144.090    
   3144.253    
   3144.417    
   3144.581    
   3144.745    
   3144.909    
   3145.073    
   3145.236    
   3145.400    
   3145.564    
   3145.728    
   3145.892    
   3146.056    
   3146.219    
   3146.383    
   3146.547    
   3146.711    
   3146.875    
   3147.039    
   3147.202    
   3147.366    
   3147.530    
   3147.694    
   3147.858    
   3148.022    
   3148.186    
   3148.349    
   3148.513    
   3148.677    
   3148.841    
   3149.005    
   3149.168    
   3149.333    
   3149.496    
   3149.660    
   3149.824    
   3149.988    
   3150.152    
   3150.315    
   3150.479    
   3150.643    
   3150.807    
   3150.971    
   3151.135    
   3151.299    
   3151.462    
   3151.626    
   3151.790    
   3151.954    
   3152.118    
   3152.281    
   3152.445    
   3152.609    
   3152.773    
   3152.937    
   3153.101    
   3153.265    
   3153.428    
   3153.592    
   3153.756    
   3153.920    
   3154.084    
   3154.248    
   3154.411    
   3154.575    
   3154.739    
   3154.903    
   3155.067    
   3155.231    
   3155.395    
   3155.558    
   3155.722    
   3155.886    
   3156.050    
   3156.214    
   3156.377    
   3156.541    
   3156.705    
   3156.869    
   3157.033    
   3157.197    
   3157.361    
   3157.524    
   3157.688    
   3157.852    
   3158.016    
   3158.180    
   3158.344    
   3158.507    
   3158.671    
   3158.835    
   3158.999    
   3159.163    
   3159.327    
   3159.490    
   3159.654    
   3159.818    
   3159.982    
   3160.146    
   3160.310    
   3160.474    
   3160.637    
   3160.801    
   3160.965    
   3161.129    
   3161.293    
   3161.457    
   3161.620    
   3161.784    
   3161.948    
   3162.112    
   3162.276    
   3162.440    
   3162.604    
   3162.767    
   3162.931    
   3163.095    
   3163.259    
   3163.423    
   3163.586    
   3163.750    
   3163.914    
   3164.078    
   3164.242    
   3164.406    
   3164.570    
   3164.733    
   3164.897    
   3165.061    
   3165.225    
   3165.389    
   3165.552    
   3165.716    
   3165.880    
   3166.044    
   3166.208    
   3166.372    
   3166.536    
   3166.699    
   3166.863    
   3167.027    
   3167.191    
   3167.355    
   3167.519    
   3167.682    
   3167.846    
   3168.010    
   3168.174    
   3168.338    
   3168.502    
   3168.666    
   3168.829    
   3168.993    
   3169.157    
   3169.321    
   3169.485    
   3169.649    
   3169.812    
   3169.976    
   3170.140    
   3170.304    
   3170.468    
   3170.632    
   3170.795    
   3170.959    
   3171.123    
   3171.287    
   3171.451    
   3171.615    
   3171.779    
   3171.942    
   3172.106    
   3172.270    
   3172.434    
   3172.598    
   3172.761    
   3172.925    
   3173.089    
   3173.253    
   3173.417    
   3173.581    
   3173.745    
   3173.908    
   3174.072    
   3174.236    
   3174.400    
   3174.564    
   3174.728    
   3174.891    
   3175.055    
   3175.219    
   3175.383    
   3175.547    
   3175.711    
   3175.875    
   3176.038    
   3176.202    
   3176.366    
   3176.530    
   3176.694    
   3176.857    
   3177.021    
   3177.185    
   3177.349    
   3177.513    
   3177.677    
   3177.841    
   3178.004    
   3178.168    
   3178.332    
   3178.496    
   3178.660    
   3178.823    
   3178.988    
   3179.151    
   3179.315    
   3179.479    
   3179.643    
   3179.807    
   3179.970    
   3180.134    
   3180.298    
   3180.462    
   3180.626    
   3180.790    
   3180.954    
   3181.117    
   3181.281    
   3181.445    
   3181.609    
   3181.773    
   3181.937    
   3182.100    
   3182.264    
   3182.428    
   3182.592    
   3182.756    
   3182.920    
   3183.083    
   3183.247    
   3183.411    
   3183.575    
   3183.739    
   3183.903    
   3184.066    
   3184.230    
   3184.394    
   3184.558    
   3184.722    
   3184.886    
   3185.050    
   3185.213    
   3185.377    
   3185.541    
   3185.705    
   3185.869    
   3186.032    
   3186.196    
   3186.360    
   3186.524    
   3186.688    
   3186.852    
   3187.016    
   3187.179    
   3187.343    
   3187.507    
   3187.671    
   3187.835    
   3187.999    
   3188.163    
   3188.326    
   3188.490    
   3188.654    
   3188.818    
   3188.982    
   3189.146    
   3189.309    
   3189.473    
   3189.637    
   3189.801    
   3189.965    
   3190.129    
   3190.292    
   3190.456    
   3190.620    
   3190.784    
   3190.948    
   3191.112    
   3191.275    
   3191.439    
   3191.603    
   3191.767    
   3191.931    
   3192.095    
   3192.259    
   3192.422    
   3192.586    
   3192.750    
   3192.914    
   3193.078    
   3193.241    
   3193.405    
   3193.569    
   3193.733    
   3193.897    
   3194.061    
   3194.225    
   3194.388    
   3194.552    
   3194.716    
   3194.880    
   3195.044    
   3195.208    
   3195.371    
   3195.535    
   3195.699    
   3195.863    
   3196.027    
   3196.191    
   3196.354    
   3196.518    
   3196.682    
   3196.846    
   3197.010    
   3197.174    
   3197.337    
   3197.501    
   3197.665    
   3197.829    
   3197.993    
   3198.157    
   3198.321    
   3198.484    
   3198.648    
   3198.812    
   3198.976    
   3199.140    
   3199.304    
   3199.468    
   3199.631    
   3199.795    
   3199.959    
   3200.123    
   3200.287    
   3200.450    
   3200.614    
   3200.778    
   3200.942    
   3201.106    
   3201.270    
   3201.434    
   3201.597    
   3201.761    
   3201.925    
   3202.089    
   3202.253    
   3202.417    
   3202.580    
   3202.744    
   3202.908    
   3203.072    
   3203.236    
   3203.400    
   3203.563    
   3203.727    
   3203.891    
   3204.055    
   3204.219    
   3204.383    
   3204.546    
   3204.710    
   3204.874    
   3205.038    
   3205.202    
   3205.366    
   3205.530    
   3205.693    
   3205.857    
   3206.021    
   3206.185    
   3206.349    
   3206.512    
   3206.677    
   3206.840    
   3207.004    
   3207.168    
   3207.332    
   3207.496    
   3207.659    
   3207.823    
   3207.987    
   3208.151    
   3208.315    
   3208.479    
   3208.643    
   3208.806    
   3208.970    
   3209.134    
   3209.298    
   3209.462    
   3209.625    
   3209.789    
   3209.953    
   3210.117    
   3210.281    
   3210.445    
   3210.609    
   3210.772    
   3210.936    
   3211.100    
   3211.264    
   3211.428    
   3211.592    
   3211.755    
   3211.919    
   3212.083    
   3212.247    
   3212.411    
   3212.575    
   3212.739    
   3212.902    
   3213.066    
   3213.230    
   3213.394    
   3213.558    
   3213.721    
   3213.885    
   3214.049    
   3214.213    
   3214.377    
   3214.541    
   3214.705    
   3214.868    
   3215.032    
   3215.196    
   3215.360    
   3215.524    
   3215.688    
   3215.851    
   3216.015    
   3216.179    
   3216.343    
   3216.507    
   3216.671    
   3216.834    
   3216.998    
   3217.162    
   3217.326    
   3217.490    
   3217.654    
   3217.818    
   3217.981    
   3218.145    
   3218.309    
   3218.473    
   3218.637    
   3218.801    
   3218.964    
   3219.128    
   3219.292    
   3219.456    
   3219.620    
   3219.784    
   3219.948    
   3220.111    
   3220.275    
   3220.439    
   3220.603    
   3220.767    
   3220.930    
   3221.094    
   3221.258    
   3221.422    
   3221.586    
   3221.750    
   3221.914    
   3222.077    
   3222.241    
   3222.405    
   3222.569    
   3222.733    
   3222.896    
   3223.060    
   3223.224    
   3223.388    
   3223.552    
   3223.716    
   3223.880    
   3224.043    
   3224.207    
   3224.371    
   3224.535    
   3224.699    
   3224.863    
   3225.026    
   3225.190    
   3225.354    
   3225.518    
   3225.682    
   3225.846    
   3226.010    
   3226.173    
   3226.337    
   3226.501    
   3226.665    
   3226.829    
   3226.993    
   3227.156    
   3227.320    
   3227.484    
   3227.648    
   3227.812    
   3227.976    
   3228.139    
   3228.303    
   3228.467    
   3228.631    
   3228.795    
   3228.959    
   3229.123    
   3229.286    
   3229.450    
   3229.614    
   3229.778    
   3229.942    
   3230.105    
   3230.269    
   3230.433    
   3230.597    
   3230.761    
   3230.925    
   3231.089    
   3231.252    
   3231.416    
   3231.580    
   3231.744    
   3231.908    
   3232.072    
   3232.235    
   3232.399    
   3232.563    
   3232.727    
   3232.891    
   3233.055    
   3233.219    
   3233.382    
   3233.546    
   3233.710    
   3233.874    
   3234.038    
   3234.201    
   3234.365    
   3234.529    
   3234.693    
   3234.857    
   3235.021    
   3235.185    
   3235.348    
   3235.512    
   3235.676    
   3235.840    
   3236.004    
   3236.167    
   3236.332    
   3236.495    
   3236.659    
   3236.823    
   3236.987    
   3237.151    
   3237.314    
   3237.478    
   3237.642    
   3237.806    
   3237.970    
   3238.134    
   3238.298    
   3238.461    
   3238.625    
   3238.789    
   3238.953    
   3239.117    
   3239.281    
   3239.444    
   3239.608    
   3239.772    
   3239.936    
   3240.100    
   3240.264    
   3240.427    
   3240.591    
   3240.755    
   3240.919    
   3241.083    
   3241.247    
   3241.410    
   3241.574    
   3241.738    
   3241.902    
   3242.066    
   3242.230    
   3242.394    
   3242.557    
   3242.721    
   3242.885    
   3243.049    
   3243.213    
   3243.376    
   3243.540    
   3243.704    
   3243.868    
   3244.032    
   3244.196    
   3244.360    
   3244.523    
   3244.687    
   3244.851    
   3245.015    
   3245.179    
   3245.343    
   3245.507    
   3245.670    
   3245.834    
   3245.998    
   3246.162    
   3246.326    
   3246.490    
   3246.653    
   3246.817    
   3246.981    
   3247.145    
   3247.309    
   3247.473    
   3247.636    
   3247.800    
   3247.964    
   3248.128    
   3248.292    
   3248.456    
   3248.619    
   3248.783    
   3248.947    
   3249.111    
   3249.275    
   3249.439    
   3249.603    
   3249.766    
   3249.930    
   3250.094    
   3250.258    
   3250.422    
   3250.585    
   3250.749    
   3250.913    
   3251.077    
   3251.241    
   3251.405    
   3251.569    
   3251.732    
   3251.896    
   3252.060    
   3252.224    
   3252.388    
   3252.552    
   3252.715    
   3252.879    
   3253.043    
   3253.207    
   3253.371    
   3253.535    
   3253.698    
   3253.862    
   3254.026    
   3254.190    
   3254.354    
   3254.518    
   3254.681    
   3254.845    
   3255.009    
   3255.173    
   3255.337    
   3255.501    
   3255.665    
   3255.828    
   3255.992    
   3256.156    
   3256.320    
   3256.484    
   3256.648    
   3256.812    
   3256.975    
   3257.139    
   3257.303    
   3257.467    
   3257.631    
   3257.794    
   3257.958    
   3258.122    
   3258.286    
   3258.450    
   3258.614    
   3258.778    
   3258.941    
   3259.105    
   3259.269    
   3259.433    
   3259.597    
   3259.760    
   3259.924    
   3260.088    
   3260.252    
   3260.416    
   3260.580    
   3260.744    
   3260.907    
   3261.071    
   3261.235    
   3261.399    
   3261.563    
   3261.727    
   3261.890    
   3262.054    
   3262.218    
   3262.382    
   3262.546    
   3262.710    
   3262.874    
   3263.037    
   3263.201    
   3263.365    
   3263.529    
   3263.693    
   3263.856    
   3264.021    
   3264.184    
   3264.348    
   3264.512    
   3264.676    
   3264.840    
   3265.003    
   3265.167    
   3265.331    
   3265.495    
   3265.659    
   3265.823    
   3265.987    
   3266.150    
   3266.314    
   3266.478    
   3266.642    
   3266.806    
   3266.969    
   3267.133    
   3267.297    
   3267.461    
   3267.625    
   3267.789    
   3267.953    
   3268.116    
   3268.280    
   3268.444    
   3268.608    
   3268.772    
   3268.936    
   3269.099    
   3269.263    
   3269.427    
   3269.591    
   3269.755    
   3269.919    
   3270.083    
   3270.246    
   3270.410    
   3270.574    
   3270.738    
   3270.902    
   3271.065    
   3271.229    
   3271.393    
   3271.557    
   3271.721    
   3271.885    
   3272.049    
   3272.212    
   3272.376    
   3272.540    
   3272.704    
   3272.868    
   3273.031    
   3273.196    
   3273.359    
   3273.523    
   3273.687    
   3273.851    
   3274.015    
   3274.178    
   3274.342    
   3274.506    
   3274.670    
   3274.834    
   3274.998    
   3275.162    
   3275.325    
   3275.489    
   3275.653    
   3275.817    
   3275.981    
   3276.145    
   3276.308    
   3276.472    
   3276.636    
   3276.800    
0
